t,x(t),v(t),p(t),F(t)
22.60033,-10.01724,-0.8621533,-1.724307,-0.07629565
22.62033,-10.03854,-1.065,-2.13,-0.09416308
22.64033,-10.05984,-1.065,-2.13,-0.0940799
22.66033,-10.08114,-1.065,-2.13,-0.09399686
22.68033,-10.10244,-1.065,-2.13,-0.09391396
22.70033,-10.12374,-1.065,-2.13,-0.09383123
22.72033,-10.14505,-1.065,-2.13,-0.09374862
22.74033,-10.16635,-1.065,-2.13,-0.09366617
22.76033,-10.18765,-1.065,-2.13,-0.09358387
22.78033,-10.20895,-1.065,-2.13,-0.0935017
22.80033,-10.23025,-1.065,-2.13,-0.09341968
22.82033,-10.25155,-1.065,-2.13,-0.0933378
22.84033,-10.27285,-1.065,-2.13,-0.09325607
22.86033,-10.29415,-1.065,-2.13,-0.09317448
22.88033,-10.31545,-1.065,-2.13,-0.09309304
22.90033,-10.33675,-1.065,-2.13,-0.09301173
22.92033,-10.35805,-1.065,-2.13,-0.09293057
22.94033,-10.37935,-1.065,-2.13,-0.09284955
22.96033,-10.40065,-1.065,-2.13,-0.09276867
22.98034,-10.42195,-1.065,-2.13,-0.09268793
23.00034,-10.44325,-1.065,-2.13,-0.09260733
23.02034,-10.46455,-1.065,-2.13,-0.09252687
23.04034,-10.48585,-1.065,-2.13,-0.09244655
23.06034,-10.50715,-1.065,-2.13,-0.09236637
23.08034,-10.52845,-1.065,-2.13,-0.09228633
23.10034,-10.54975,-1.065,-2.13,-0.09220643
23.12034,-10.57105,-1.065,-2.13,-0.09212666
23.14034,-10.59235,-1.065,-2.13,-0.09204704
23.16034,-10.61365,-1.065,-2.13,-0.09196755
23.18034,-10.63495,-1.065,-2.13,-0.0918882
23.20034,-10.65625,-1.065,-2.13,-0.09180898
23.22034,-10.67755,-1.065,-2.13,-0.0917299
23.24034,-10.69885,-1.065,-2.13,-0.09165096
23.26034,-10.72015,-1.065,-2.13,-0.09157216
23.28034,-10.74145,-1.065,-2.13,-0.09149349
23.30034,-10.76275,-1.065,-2.13,-0.09141495
23.32034,-10.78405,-1.065,-2.13,-0.09133655
23.34034,-10.80536,-1.065,-2.13,-0.09125828
23.36034,-10.82666,-1.065,-2.13,-0.09118015
23.38034,-10.84796,-1.065,-2.13,-0.09110215
23.40034,-10.86926,-1.065,-2.13,-0.09102429
23.42035,-10.89056,-1.065,-2.13,-0.09094655
23.44035,-10.91186,-1.065,-2.13,-0.09086895
23.46035,-10.93316,-1.065,-2.13,-0.09079149
23.48035,-10.95446,-1.065,-2.13,-0.09071415
23.50035,-10.97576,-1.065,-2.13,-0.09063695
23.52035,-10.99706,-1.065,-2.13,-0.09055987
23.54035,-11.01836,-1.065,-2.13,-0.09048293
23.56035,-11.03966,-1.065,-2.13,-0.09040612
23.58035,-11.06096,-1.065,-2.13,-0.09032944
23.60035,-11.08226,-1.065,-2.13,-0.09025288
23.62035,-11.10356,-1.065,-2.13,-0.09017646
23.64035,-11.12486,-1.065,-2.13,-0.09010017
23.66035,-11.14616,-1.065,-2.13,-0.09002401
23.68035,-11.16746,-1.065,-2.13,-0.08994798
23.70035,-11.18876,-1.065,-2.13,-0.08987207
23.72035,-11.21006,-1.065,-2.13,-0.08979629
23.74035,-11.23136,-1.065,-2.13,-0.08972064
23.76035,-11.25266,-1.065,-2.13,-0.08964512
23.78035,-11.27396,-1.065,-2.13,-0.08956972
23.80035,-11.29526,-1.065,-2.13,-0.08949445
23.82035,-11.31656,-1.065,-2.13,-0.08941931
23.84035,-11.33786,-1.065,-2.13,-0.08934429
23.86036,-11.35916,-1.065,-2.13,-0.0892694
23.88036,-11.38046,-1.065,-2.13,-0.08919463
23.90036,-11.40176,-1.065,-2.13,-0.08911999
23.92036,-11.42306,-1.065,-2.13,-0.08904548
23.94036,-11.44436,-1.065,-2.13,-0.08897109
23.96036,-11.46566,-1.065,-2.13,-0.08889682
23.98036,-11.48697,-1.065,-2.13,-0.08882268
24.00036,-11.50827,-1.065,-2.13,-0.08874866
24.02036,-11.52957,-1.065,-2.13,-0.08867476
24.04036,-11.55087,-1.065,-2.13,-0.08860099
24.06036,-11.57217,-1.065,-2.13,-0.08852734
24.08036,-11.59347,-1.065,-2.13,-0.08845381
24.10036,-11.61477,-1.065,-2.13,-0.0883804
24.12036,-11.63607,-1.065,-2.13,-0.08830712
24.14036,-11.65737,-1.065,-2.13,-0.08823396
24.16036,-11.67867,-1.065,-2.13,-0.08816092
24.18036,-11.69997,-1.065,-2.13,-0.08808799
24.20036,-11.72127,-1.065,-2.13,-0.08801519
24.22036,-11.74257,-1.065,-2.13,-0.08794251
24.24036,-11.76387,-1.065,-2.13,-0.08786995
24.26036,-11.78517,-1.065,-2.13,-0.08779752
24.28036,-11.80647,-1.065,-2.13,-0.08772519
24.30037,-11.82777,-1.065,-2.13,-0.08765299
24.32037,-11.84907,-1.065,-2.13,-0.0875809
24.34037,-11.87037,-1.065,-2.13,-0.08750894
24.36037,-11.89167,-1.065,-2.13,-0.08743709
24.38037,-11.91297,-1.065,-2.13,-0.08736537
24.40037,-11.93427,-1.065,-2.13,-0.08729375
24.42037,-11.95557,-1.065,-2.13,-0.08722226
24.44037,-11.97687,-1.065,-2.13,-0.08715088
24.46037,-11.99817,-1.065,-2.13,-0.08707962
24.48037,-12.01947,-1.065,-2.13,-0.08700848
24.50037,-12.04077,-1.065,-2.13,-0.08693745
24.52037,-12.06207,-1.065,-2.13,-0.08686654
24.54037,-12.08337,-1.065,-2.13,-0.08679574
24.56037,-12.10467,-1.065,-2.13,-0.08672506
24.58037,-12.12597,-1.065,-2.13,-0.08665449
24.60037,-12.14727,-1.065,-2.13,-0.08658404
24.62037,-12.16858,-1.065,-2.13,-0.08651371
24.64037,-12.18988,-1.065,-2.13,-0.08644348
24.66037,-12.21118,-1.065,-2.13,-0.08637337
24.68037,-12.23248,-1.065,-2.13,-0.08630338
24.70037,-12.25378,-1.065,-2.13,-0.0862335
24.72038,-12.27508,-1.065,-2.13,-0.08616373
24.74038,-12.29638,-1.065,-2.13,-0.08609407
24.76038,-12.31768,-1.065,-2.13,-0.08602453
24.78038,-12.33898,-1.065,-2.13,-0.0859551
24.80038,-12.36028,-1.065,-2.13,-0.08588578
24.82038,-12.38158,-1.065,-2.13,-0.08581657
24.84038,-12.40288,-1.065,-2.13,-0.08574747
24.86038,-12.42418,-1.065,-2.13,-0.08567849
24.88038,-12.44548,-1.065,-2.13,-0.08560961
24.90038,-12.46678,-1.065,-2.13,-0.08554085
24.92038,-12.48808,-1.065,-2.13,-0.0854722
24.94038,-12.50938,-1.065,-2.13,-0.08540366
24.96038,-12.53068,-1.065,-2.13,-0.08533522
24.98038,-12.55198,-1.065,-2.13,-0.0852669
25.00038,-12.57328,-1.065,-2.13,-0.08519869
25.02038,-12.59458,-1.065,-2.13,-0.08513058
25.04038,-12.61588,-1.065,-2.13,-0.08506259
25.06038,-12.63718,-1.065,-2.13,-0.0849947
25.08038,-12.65848,-1.065,-2.13,-0.08492692
25.10038,-12.67978,-1.065,-2.13,-0.08485924
25.12038,-12.70108,-1.065,-2.13,-0.08479168
25.14038,-12.72238,-1.065,-2.13,-0.08472423
25.16039,-12.74368,-1.065,-2.13,-0.08465688
25.18039,-12.76498,-1.065,-2.13,-0.08458964
25.20039,-12.78628,-1.065,-2.13,-0.0845225
25.22039,-12.80758,-1.065,-2.13,-0.08445548
25.24039,-12.82889,-1.065,-2.13,-0.08438855
25.26039,-12.85019,-1.065,-2.13,-0.08432173
25.28039,-12.87149,-1.065,-2.13,-0.08425502
25.30039,-12.89279,-1.065,-2.13,-0.08418842
25.32039,-12.91409,-1.065,-2.13,-0.08412192
25.34039,-12.93539,-1.065,-2.13,-0.08405552
25.36039,-12.95669,-1.065,-2.13,-0.08398923
25.38039,-12.97799,-1.065,-2.13,-0.08392304
25.40039,-12.99929,-1.065,-2.13,-0.08385696
25.42039,-13.02059,-1.065,-2.13,-0.08379099
25.44039,-13.04189,-1.065,-2.13,-0.08372511
25.46039,-13.06319,-1.065,-2.13,-0.08365934
25.48039,-13.08449,-1.065,-2.13,-0.08359367
25.50039,-13.10579,-1.065,-2.13,-0.08352811
25.52039,-13.12709,-1.065,-2.13,-0.08346265
25.54039,-13.14839,-1.065,-2.13,-0.08339729
25.56039,-13.16969,-1.065,-2.13,-0.08333203
25.58039,-13.19099,-1.065,-2.13,-0.08326688
25.6004,-13.21229,-1.065,-2.13,-0.08320183
25.6204,-13.23359,-1.065,-2.13,-0.08313688
25.6404,-13.25489,-1.065,-2.13,-0.08307203
25.6604,-13.27619,-1.065,-2.13,-0.08300728
25.6804,-13.29749,-1.065,-2.13,-0.08294263
25.7004,-13.31879,-1.065,-2.13,-0.08287808
25.7204,-13.34009,-1.065,-2.13,-0.08281364
25.7404,-13.36139,-1.065,-2.13,-0.08274928
25.7604,-13.38269,-1.065,-2.13,-0.08268504
25.7804,-13.40399,-1.065,-2.13,-0.0826209
25.8004,-13.42529,-1.065,-2.13,-0.08255684
25.8204,-13.44659,-1.065,-2.13,-0.0824929
25.8404,-13.46789,-1.065,-2.13,-0.08242905
25.8604,-13.48919,-1.065,-2.13,-0.0823653
25.8804,-13.5105,-1.065,-2.13,-0.08230165
25.9004,-13.5318,-1.065,-2.13,-0.08223809
25.9204,-13.5531,-1.065,-2.13,-0.08217464
25.9404,-13.5744,-1.065,-2.13,-0.08211128
25.9604,-13.5957,-1.065,-2.13,-0.08204802
25.9804,-13.617,-1.065,-2.13,-0.08198486
26.0004,-13.6383,-1.065,-2.13,-0.08192179
26.0204,-13.6596,-1.065,-2.13,-0.08185882
26.04041,-13.6809,-1.065,-2.13,-0.08179595
26.06041,-13.7022,-1.065,-2.13,-0.08173317
26.08041,-13.7235,-1.065,-2.13,-0.08167049
26.10041,-13.7448,-1.065,-2.13,-0.08160791
26.12041,-13.7661,-1.065,-2.13,-0.08154542
26.14041,-13.7874,-1.065,-2.13,-0.08148303
26.16041,-13.8087,-1.065,-2.13,-0.08142073
26.18041,-13.83,-1.065,-2.13,-0.08135854
26.20041,-13.8513,-1.065,-2.13,-0.08129643
26.22041,-13.8726,-1.065,-2.13,-0.08123442
26.24041,-13.8939,-1.065,-2.13,-0.0811725
26.26041,-13.9152,-1.065,-2.13,-0.08111068
26.28041,-13.9365,-1.065,-2.13,-0.08104895
26.30041,-13.9578,-1.065,-2.13,-0.08098731
26.32041,-13.9791,-1.065,-2.13,-0.08092577
26.34041,-14.0004,-1.065,-2.13,-0.08086433
26.36041,-14.0217,-1.065,-2.13,-0.08080297
26.38041,-14.043,-1.065,-2.13,-0.08074171
26.40041,-14.0643,-1.065,-2.13,-0.08068054
26.42041,-14.0856,-1.065,-2.13,-0.08061946
26.44041,-14.1069,-1.065,-2.13,-0.08055848
26.46041,-14.1282,-1.065,-2.13,-0.08049759
26.48042,-14.1495,-1.065,-2.13,-0.08043679
26.50042,-14.1708,-1.065,-2.13,-0.08037608
26.52042,-14.19211,-1.065,-2.13,-0.08031547
26.54042,-14.21341,-1.065,-2.13,-0.08025494
26.56042,-14.23471,-1.065,-2.13,-0.08019451
26.58042,-14.25601,-1.065,-2.13,-0.08013417
26.60042,-14.27731,-1.065,-2.13,-0.08007392
26.62042,-14.29861,-1.065,-2.13,-0.08001375
26.64042,-14.31991,-1.065,-2.13,-0.07995369
26.66042,-14.34121,-1.065,-2.13,-0.0798937
26.68042,-14.36251,-1.065,-2.13,-0.07983381
26.70042,-14.38381,-1.065,-2.13,-0.07977401
26.72042,-14.40511,-1.065,-2.13,-0.0797143
26.74042,-14.42641,-1.065,-2.13,-0.07965468
26.76042,-14.44771,-1.065,-2.13,-0.07959514
26.78042,-14.46901,-1.065,-2.13,-0.0795357
26.80042,-14.49031,-1.065,-2.13,-0.07947634
26.82042,-14.51161,-1.065,-2.13,-0.07941708
26.84042,-14.53291,-1.065,-2.13,-0.0793579
26.86042,-14.55421,-1.065,-2.13,-0.07929881
26.88042,-14.57551,-1.065,-2.13,-0.07923981
26.90042,-14.59681,-1.065,-2.13,-0.07918089
26.92043,-14.61811,-1.065,-2.13,-0.07912207
26.94043,-14.63941,-1.065,-2.13,-0.07906333
26.96043,-14.66071,-1.065,-2.13,-0.07900468
26.98043,-14.68201,-1.065,-2.13,-0.07894611
27.00043,-14.70331,-1.065,-2.13,-0.07888763
27.02043,-14.72461,-1.065,-2.13,-0.07882924
27.04043,-14.74591,-1.065,-2.13,-0.07877093
27.06043,-14.76721,-1.065,-2.13,-0.07871271
27.08043,-14.78851,-1.065,-2.13,-0.07865457
27.10043,-14.80981,-1.065,-2.13,-0.07859652
27.12043,-14.83111,-1.065,-2.13,-0.07853857
27.14043,-14.85242,-1.065,-2.13,-0.07848069
27.16043,-14.87372,-1.065,-2.13,-0.0784229
27.18043,-14.89502,-1.065,-2.13,-0.07836519
27.20043,-14.91632,-1.065,-2.13,-0.07830757
27.22043,-14.93762,-1.065,-2.13,-0.07825003
27.24043,-14.95892,-1.065,-2.13,-0.07819258
27.26043,-14.98022,-1.065,-2.13,-0.07813521
27.28043,-15.00152,-1.065,-2.13,-0.07807793
27.30043,-15.02282,-1.065,-2.13,-0.07802072
27.32043,-15.04412,-1.065,-2.13,-0.07796361
27.34044,-15.06542,-1.065,-2.13,-0.07790657
27.36044,-15.08672,-1.065,-2.13,-0.07784963
27.38044,-15.10802,-1.065,-2.13,-0.07779276
27.40044,-15.12932,-1.065,-2.13,-0.07773598
27.42044,-15.15062,-1.065,-2.13,-0.07767928
27.44044,-15.17192,-1.065,-2.13,-0.07762266
27.46044,-15.19322,-1.065,-2.13,-0.07756612
27.48044,-15.21452,-1.065,-2.13,-0.07750967
27.50044,-15.23582,-1.065,-2.13,-0.0774533
27.52044,-15.25712,-1.065,-2.13,-0.07739701
27.54044,-15.27842,-1.065,-2.13,-0.0773408
27.56044,-15.29972,-1.065,-2.13,-0.07728467
27.58044,-15.32102,-1.065,-2.13,-0.07722863
27.60044,-15.34232,-1.065,-2.13,-0.07717267
27.62044,-15.36362,-1.065,-2.13,-0.07711679
27.64044,-15.38492,-1.065,-2.13,-0.07706098
27.66044,-15.40622,-1.065,-2.13,-0.07700526
27.68044,-15.42752,-1.065,-2.13,-0.07694963
27.70044,-15.44882,-1.065,-2.13,-0.07689406
27.72044,-15.47012,-1.065,-2.13,-0.07683858
27.74044,-15.49142,-1.065,-2.13,-0.07678319
27.76044,-15.51272,-1.065,-2.13,-0.07672787
27.78045,-15.53403,-1.065,-2.13,-0.07667262
27.80045,-15.55533,-1.065,-2.13,-0.07661746
27.82045,-15.57663,-1.065,-2.13,-0.07656238
27.84045,-15.59793,-1.065,-2.13,-0.07650738
27.86045,-15.61923,-1.065,-2.13,-0.07645246
27.88045,-15.64053,-1.065,-2.13,-0.07639761
27.90045,-15.66183,-1.065,-2.13,-0.07634285
27.92045,-15.68313,-1.065,-2.13,-0.07628816
27.94045,-15.70443,-1.065,-2.13,-0.07623355
27.96045,-15.72573,-1.065,-2.13,-0.07617902
27.98045,-15.74703,-1.065,-2.13,-0.07612457
28.00045,-15.76833,-1.065,-2.13,-0.07607019
28.02045,-15.78963,-1.065,-2.13,-0.0760159
28.04045,-15.81093,-1.065,-2.13,-0.07596167
28.06045,-15.83223,-1.065,-2.13,-0.07590754
28.08045,-15.85353,-1.065,-2.13,-0.07585347
28.10045,-15.87483,-1.065,-2.13,-0.07579948
28.12045,-15.89613,-1.065,-2.13,-0.07574557
28.14045,-15.91743,-1.065,-2.13,-0.07569173
28.16045,-15.93873,-1.065,-2.13,-0.07563797
28.18045,-15.96003,-1.065,-2.13,-0.07558429
28.20045,-15.98133,-1.065,-2.13,-0.07553069
28.22046,-16.00263,-1.065,-2.13,-0.07547715
28.24046,-16.02393,-1.065,-2.13,-0.0754237
28.26046,-16.04523,-1.065,-2.13,-0.07537032
28.28046,-16.06653,-1.065,-2.13,-0.07531702
28.30046,-16.08783,-1.065,-2.13,-0.07526379
28.32046,-16.10913,-1.065,-2.13,-0.07521064
28.34046,-16.13043,-1.065,-2.13,-0.07515756
28.36046,-16.15173,-1.065,-2.13,-0.07510456
28.38046,-16.17303,-1.065,-2.13,-0.07505163
28.40046,-16.19433,-1.065,-2.13,-0.07499877
28.42046,-16.21563,-1.065,-2.13,-0.07494599
28.44046,-16.23693,-1.065,-2.13,-0.07489329
28.46046,-16.25823,-1.065,-2.13,-0.07484066
28.48046,-16.27953,-1.065,-2.13,-0.0747881
28.50046,-16.30083,-1.065,-2.13,-0.07473562
28.52046,-16.32213,-1.065,-2.13,-0.07468321
28.54046,-16.34343,-1.065,-2.13,-0.07463087
28.56046,-16.36473,-1.065,-2.13,-0.07457861
28.58046,-16.38603,-1.065,-2.13,-0.07452642
28.60046,-16.40733,-1.065,-2.13,-0.0744743
28.62046,-16.42863,-1.065,-2.13,-0.07442226
28.64046,-16.44993,-1.065,-2.13,-0.07437029
28.66047,-16.47123,-1.065,-2.13,-0.07431839
28.68047,-16.49253,-1.065,-2.13,-0.07426656
28.70047,-16.51383,-1.065,-2.13,-0.07421481
28.72047,-16.53513,-1.065,-2.13,-0.07416313
28.74047,-16.55643,-1.065,-2.13,-0.07411152
28.76047,-16.57773,-1.065,-2.13,-0.07405998
28.78047,-16.59903,-1.065,-2.13,-0.07400851
28.80047,-16.62033,-1.065,-2.13,-0.07395712
28.82047,-16.64163,-1.065,-2.13,-0.0739058
28.84047,-16.66293,-1.065,-2.13,-0.07385454
28.86047,-16.68423,-1.065,-2.13,-0.07380336
28.88047,-16.70553,-1.065,-2.13,-0.07375225
28.90047,-16.72683,-1.065,-2.13,-0.07370121
28.92047,-16.74813,-1.065,-2.13,-0.07365024
28.94047,-16.76943,-1.065,-2.13,-0.07359934
28.96047,-16.79073,-1.065,-2.13,-0.07354851
28.98047,-16.81203,-1.065,-2.13,-0.07349776
29.00047,-16.83333,-1.065,-2.13,-0.07344706
29.02047,-16.85463,-1.065,-2.13,-0.07339644
29.04047,-16.87593,-1.065,-2.13,-0.0733459
29.06047,-16.89723,-1.065,-2.13,-0.07329542
29.08047,-16.91853,-1.065,-2.13,-0.07324501
29.10048,-16.93983,-1.065,-2.13,-0.07319467
29.12048,-16.96113,-1.065,-2.13,-0.0731444
29.14048,-16.98243,-1.065,-2.13,-0.0730942
29.16048,-17.00373,-1.065,-2.13,-0.07304406
29.18048,-17.02503,-1.065,-2.13,-0.07299399
29.20048,-17.04633,-1.065,-2.13,-0.072944
29.22048,-17.06763,-1.065,-2.13,-0.07289407
29.24048,-17.08893,-1.065,-2.13,-0.07284421
29.26048,-17.11023,-1.065,-2.13,-0.07279442
29.28048,-17.13153,-1.065,-2.13,-0.0727447
29.30048,-17.15283,-1.065,-2.13,-0.07269504
29.32048,-17.17413,-1.065,-2.13,-0.07264546
29.34048,-17.19543,-1.065,-2.13,-0.07259593
29.36048,-17.21673,-1.065,-2.13,-0.07254648
29.38048,-17.23803,-1.065,-2.13,-0.0724971
29.40048,-17.25933,-1.065,-2.13,-0.07244778
29.42048,-17.28063,-1.065,-2.13,-0.07239853
29.44048,-17.30193,-1.065,-2.13,-0.07234935
29.46048,-17.32323,-1.065,-2.13,-0.07230023
29.48048,-17.34453,-1.065,-2.13,-0.07225118
29.50048,-17.36583,-1.065,-2.13,-0.07220219
29.52048,-17.38713,-1.065,-2.13,-0.07215328
29.54049,-17.40843,-1.065,-2.13,-0.07210442
29.56049,-17.42973,-1.065,-2.13,-0.07205564
29.58049,-17.45103,-1.065,-2.13,-0.07200692
29.60049,-17.47233,-1.065,-2.13,-0.07195827
29.62049,-17.49363,-1.065,-2.13,-0.07190967
29.64049,-17.51493,-1.065,-2.13,-0.07186116
29.66049,-17.53623,-1.065,-2.13,-0.0718127
29.68049,-17.55753,-1.065,-2.13,-0.07176431
29.70049,-17.57883,-1.065,-2.13,-0.07171598
29.72049,-17.60013,-1.065,-2.13,-0.07166772
29.74049,-17.62143,-1.065,-2.13,-0.07161952
29.76049,-17.64273,-1.065,-2.13,-0.07157139
29.78049,-17.66403,-1.065,-2.13,-0.07152332
29.80049,-17.68533,-1.065,-2.13,-0.07147532
29.82049,-17.70663,-1.065,-2.13,-0.07142738
29.84049,-17.72793,-1.065,-2.13,-0.07137951
29.86049,-17.74923,-1.065,-2.13,-0.07133169
29.88049,-17.77053,-1.065,-2.13,-0.07128395
29.90049,-17.79183,-1.065,-2.13,-0.07123627
29.92049,-17.81313,-1.065,-2.13,-0.07118865
29.94049,-17.83443,-1.065,-2.13,-0.07114109
29.96049,-17.85573,-1.065,-2.13,-0.0710936
29.9805,-17.87703,-1.065,-2.13,-0.07104618
30.0005,-17.89833,-1.065,-2.13,-0.07099882
30.0205,-17.91963,-1.065,-2.13,-0.07095151
30.0405,-17.94093,-1.065,-2.13,-0.07090428
30.0605,-17.96223,-1.065,-2.13,-0.0708571
30.0805,-17.98353,-1.065,-2.13,-0.07080999
30.1005,-18.00483,-1.065,-2.13,-0.07076294
30.1205,-18.02613,-1.065,-2.13,-0.07071595
30.1405,-18.04743,-1.065,-2.13,-0.07066903
30.1605,-18.06873,-1.065,-2.13,-0.07062216
30.1805,-18.09003,-1.065,-2.13,-0.07057536
30.2005,-18.11133,-1.065,-2.13,-0.07052862
